Timestamp,Orientation_x,Orientation_y,Orientation_z,Orientation_w,Angular_Velocity_x,Angular_Velocity_y,Angular_Velocity_z,Linear_Acceleration_x,Linear_Acceleration_y,Linear_Acceleration_z
1724289492.864799,0.706011,-0.002994,0.708155,0.007496,-0.059219,0.007522,0.007243,9.924330,0.254973,0.274586
1724289492.875680,0.705895,-0.002682,0.708272,0.007537,0.013160,0.014521,0.025709,9.836070,0.245166,0.313813
1724289492.886844,0.705875,-0.002516,0.708299,0.006901,0.103550,-0.000419,0.065799,9.855683,0.186326,0.323619
1724289492.897896,0.705855,-0.002688,0.708324,0.006247,0.071750,0.009425,0.100077,9.973363,0.029420,0.480526
1724289492.908822,0.705911,-0.003110,0.708271,0.005702,0.021171,-0.013439,0.130882,9.934136,-0.156906,0.460913
1724289492.919652,0.706087,-0.003340,0.708099,0.005126,0.047979,-0.051958,0.113220,9.973363,-0.333426,0.441299
1724289492.930419,0.706320,-0.003679,0.707866,0.004947,-0.003421,-0.064315,0.079081,9.963556,-0.382459,0.470719
1724289492.941293,0.706684,-0.004181,0.707499,0.005075,-0.085975,-0.096342,0.048730,9.806650,-0.451106,0.411879
1724289492.951277,0.707175,-0.004663,0.707005,0.005087,-0.066741,-0.127426,0.018692,9.747810,-0.431493,0.166713
1724289492.962653,0.707656,-0.004731,0.706522,0.005277,-0.039671,-0.138300,-0.022201,9.796843,-0.313813,0.039227
1724289492.973528,0.708099,-0.004624,0.706078,0.005348,0.006126,-0.107984,-0.020089,9.659550,-0.284393,-0.039227
1724289492.984432,0.708421,-0.004465,0.705757,0.005248,0.030980,-0.084875,-0.012165,9.590904,-0.147100,-0.176520
1724289492.994198,0.708586,-0.004411,0.705592,0.005104,0.030578,-0.048381,0.014853,9.522257,-0.294199,-0.068647
1724289493.004193,0.708639,-0.004585,0.705538,0.005041,-0.017104,-0.019059,0.031119,9.522257,-0.147100,-0.088260
1724289493.014024,0.708668,-0.004715,0.705510,0.004812,-0.001728,-0.015464,0.050318,9.561484,-0.245166,-0.049033
1724289493.024233,-0.708684,0.004629,-0.705497,-0.004392,0.066584,-0.002251,0.048956,9.512450,-0.402073,-0.078453
1724289493.034201,-0.708628,0.004573,-0.705555,-0.004177,0.049602,0.011711,0.027559,9.581097,-0.411879,-0.156906
1724289493.044207,-0.708490,0.004624,-0.705694,-0.004212,-0.020071,0.036024,-0.005445,9.649744,-0.402073,-0.058840
1724289493.055326,-0.708326,0.004549,-0.705859,-0.004188,0.011606,0.039427,-0.013073,9.688970,-0.333426,-0.029420
1724289493.066256,-0.708148,0.004489,-0.706038,-0.004162,0.008395,0.046949,-0.010053,9.698777,-0.343233,0.049033
1724289493.077116,-0.707994,0.004620,-0.706191,-0.004204,-0.013387,0.035779,-0.001100,9.718390,-0.451106,0.068647
1724289493.087346,-0.707781,0.004747,-0.706403,-0.004361,-0.037420,0.055624,-0.009041,9.904716,-0.490333,0.058840
1724289493.098881,-0.707533,0.004721,-0.706651,-0.004399,0.003526,0.060196,-0.018221,9.757617,-0.509946,0.186326
1724289493.109766,-0.707299,0.004802,-0.706884,-0.004380,-0.011345,0.058277,-0.014294,9.816457,-0.441299,0.196133
1724289493.120573,-0.707009,0.004670,-0.707176,-0.004339,0.013701,0.073513,-0.026442,9.796843,-0.480526,0.225553
1724289493.131361,0.706742,-0.004328,0.707444,0.004471,0.036809,0.069534,-0.061628,9.816457,-0.333426,0.284393
1724289493.141129,0.706455,-0.004183,0.707727,0.005011,-0.033702,0.068906,-0.085835,9.875297,-0.225553,0.451106
1724289493.150883,0.706298,-0.004267,0.707880,0.005569,-0.104737,0.054035,-0.068853,9.963556,-0.166713,0.392266
1724289493.161797,0.706231,-0.004289,0.707943,0.006016,-0.060458,0.015202,-0.052657,9.904716,-0.088260,0.421686
1724289493.172587,0.706211,-0.004355,0.707958,0.006530,-0.076271,-0.009285,-0.043040,9.953750,-0.019613,0.294199
1724289493.183366,0.706201,-0.004276,0.707964,0.006942,-0.053215,-0.003421,-0.049044,9.787037,0.000000,0.235360
1724289493.193102,0.706125,-0.004138,0.708038,0.007265,-0.023108,0.012671,-0.049131,9.894910,0.068647,0.245166
1724289493.204651,0.706026,-0.004032,0.708136,0.007371,-0.007365,0.024976,-0.033441,9.865490,0.166713,0.254973
1724289493.215461,0.705873,-0.003546,0.708292,0.007302,0.078348,0.034802,-0.007034,9.806650,0.058840,0.225553
1724289493.226255,0.705711,-0.003336,0.708456,0.007154,0.046722,0.043790,-0.006458,9.914523,0.009807,0.304006
1724289493.235945,0.705614,-0.003227,0.708554,0.007053,0.027506,0.029601,0.004416,9.816457,0.058840,0.470719
1724289493.245906,0.705581,-0.003101,0.708588,0.007031,0.030177,0.003578,0.001169,9.787037,0.068647,0.451106
1724289493.255903,0.705655,-0.003400,0.708509,0.007337,-0.064036,-0.023736,0.011170,9.796843,0.019613,0.333426
1724289493.266781,0.705797,-0.003731,0.708362,0.007672,-0.108943,-0.034540,0.027000,9.855683,0.029420,0.294199
1724289493.277732,0.705911,-0.003975,0.708247,0.007725,-0.036111,-0.023038,0.024138,9.806650,0.029420,0.147100
1724289493.288633,0.705942,-0.004374,0.708212,0.007844,-0.066131,-0.007051,0.043790,9.767423,-0.049033,0.215746
1724289493.299399,0.705948,-0.004769,0.708204,0.007844,-0.064612,-0.002723,0.051784,9.796843,-0.205940,0.264780
1724289493.309089,0.705973,-0.004848,0.708182,0.007505,0.030404,-0.009652,0.051714,9.806650,-0.343233,0.205940
1724289493.319849,0.705981,-0.004775,0.708178,0.007147,0.078103,-0.004416,0.038048,9.738003,-0.333426,0.186326
1724289493.330882,0.705941,-0.004905,0.708220,0.006967,0.015202,0.018605,0.006562,9.796843,-0.362846,0.127486
1724289493.341919,0.705843,-0.004808,0.708319,0.006830,0.021241,0.021066,-0.021520,9.806650,-0.480526,0.196133
1724289493.352933,0.705699,-0.004399,0.708466,0.006745,0.068469,0.025325,-0.054000,9.855683,-0.264780,0.196133
1724289493.363736,0.705548,-0.004152,0.708616,0.006942,0.011519,0.034278,-0.057805,9.777230,-0.137293,0.343233
1724289493.374511,0.705478,-0.004075,0.708684,0.007168,-0.025953,0.010071,-0.037978,9.875297,-0.078453,0.323619
1724289493.385611,0.705460,-0.004047,0.708699,0.007455,-0.031433,-0.016389,-0.016005,9.826263,-0.019613,0.362846
1724289493.396688,0.705597,-0.004422,0.708558,0.007685,-0.078976,-0.034941,0.022218,9.777230,-0.009807,0.254973
1724289493.407720,0.705839,-0.004923,0.708312,0.007826,-0.078121,-0.036669,0.042534,9.836070,-0.176520,0.147100
1724289493.418776,0.705915,-0.005263,0.708233,0.007843,-0.044907,-0.005760,0.037734,9.816457,-0.343233,0.107873
1724289493.430090,0.705848,-0.005465,0.708297,0.008024,-0.057264,0.022532,0.002164,9.885103,-0.284393,0.107873
1724289493.441155,0.705736,-0.005407,0.708407,0.008181,-0.030962,0.028972,-0.017767,9.865490,-0.156906,0.264780
1724289493.451200,0.705689,-0.004970,0.708458,0.008074,0.061732,0.017488,-0.038834,9.953750,-0.137293,0.382459
1724289493.462625,0.705670,-0.004395,0.708483,0.007897,0.107844,0.014312,-0.054035,9.963556,-0.088260,0.323619
1724289493.473454,0.705663,-0.003936,0.708494,0.007813,0.068277,0.005585,-0.047194,9.894910,0.058840,0.353039
1724289493.483137,0.705656,-0.003490,0.708503,0.007851,0.055467,-0.022829,-0.035570,9.826263,0.147100,0.421686
1724289493.492834,0.705761,-0.003328,0.708400,0.007717,0.050545,-0.030124,-0.003386,9.865490,0.117680,0.264780
1724289493.503755,0.705876,-0.003557,0.708284,0.007710,-0.014643,-0.035762,0.048136,9.777230,0.068647,0.333426
1724289493.514878,0.706066,-0.004149,0.708091,0.007810,-0.086621,-0.058102,0.068591,9.796843,-0.166713,0.294199
1724289493.524912,0.706262,-0.004734,0.707890,0.007879,-0.090443,-0.053791,0.063390,9.757617,-0.264780,0.274586
1724289493.535251,0.706440,-0.005165,0.707709,0.007991,-0.075206,-0.062116,0.046321,9.698777,-0.313813,0.107873
1724289493.546560,0.706593,-0.005419,0.707552,0.008169,-0.068749,-0.039497,0.009669,9.708583,-0.323619,-0.009807
1724289493.557987,0.706663,-0.005224,0.707482,0.008326,-0.002374,-0.024347,-0.033371,9.718390,-0.333426,0.029420
1724289493.568128,0.706593,-0.004602,0.707556,0.008356,0.068696,0.021031,-0.085731,9.659550,-0.039227,0.039227
1724289493.578111,0.706434,-0.003882,0.707720,0.008237,0.107757,0.045064,-0.080669,9.669357,0.068647,0.117680
1724289493.588011,0.706257,-0.003029,0.707902,0.008140,0.141319,0.051592,-0.076882,9.816457,0.137293,0.235360
1724289493.598062,0.706161,-0.002559,0.708002,0.007943,0.109223,0.037647,-0.047630,9.708583,0.156906,0.421686
1724289493.607924,0.706212,-0.002256,0.707954,0.007789,0.072204,-0.002409,-0.024819,9.787037,0.117680,0.372653
1724289493.618029,0.706318,-0.002176,0.707848,0.007771,0.032428,-0.042883,0.002077,9.953750,0.098067,0.333426
1724289493.627795,0.706420,-0.002373,0.707745,0.007919,-0.051191,-0.028850,0.019740,9.728197,0.078453,0.333426
1724289493.637842,0.706603,-0.002709,0.707560,0.007929,-0.055065,-0.056409,0.045326,9.679164,0.029420,0.215746
1724289493.647909,0.706788,-0.002999,0.707377,0.007713,-0.012462,-0.054367,0.068749,9.826263,-0.156906,0.107873
1724289493.658053,0.706830,-0.003348,0.707337,0.007426,-0.006266,-0.017925,0.088645,9.679164,-0.225553,0.127486
1724289493.668147,0.706818,-0.003654,0.707349,0.007156,-0.002321,0.003264,0.085259,9.620324,-0.441299,0.127486
1724289493.678205,0.706778,-0.003780,0.707390,0.007018,0.004328,0.008674,0.041172,9.698777,-0.519752,0.186326
1724289493.688245,0.706724,-0.003774,0.707445,0.006951,0.007103,0.014312,0.000244,9.826263,-0.529559,0.254973
1724289493.699298,0.706708,-0.003506,0.707465,0.006688,0.062151,-0.001239,-0.022864,9.865490,-0.451106,0.235360
1724289493.709093,0.706712,-0.002887,0.707468,0.006246,0.139103,0.003456,-0.024836,9.943943,-0.264780,0.215746
1724289493.719221,0.706628,-0.002475,0.707556,0.005893,0.115593,0.015743,-0.011484,9.934136,-0.215746,0.215746
1724289493.730471,0.706499,-0.002261,0.707688,0.005650,0.071157,0.038467,0.002147,10.032203,-0.333426,0.451106
1724289493.741826,0.706411,-0.002382,0.707775,0.005677,-0.004765,0.027803,0.004014,9.983170,-0.254973,0.500139
1724289493.751856,0.706532,-0.002898,0.707649,0.006050,-0.105313,-0.022497,0.018117,9.963556,-0.196133,0.480526
1724289493.761904,0.706800,-0.003656,0.707373,0.006637,-0.179141,-0.070319,0.015673,9.914523,-0.107873,0.470719
1724289493.771849,0.707219,-0.004444,0.706944,0.007132,-0.206106,-0.117496,0.039532,9.924330,-0.137293,0.294199
1724289493.783962,0.707711,-0.004913,0.706449,0.007120,-0.096918,-0.132331,0.060336,9.924330,-0.225553,0.088260
1724289493.794210,0.708134,-0.004868,0.706031,0.006585,0.072623,-0.097791,0.056409,9.806650,-0.313813,-0.127486
1724289493.804223,0.708353,-0.004421,0.705820,0.005909,0.151634,-0.041940,0.009879,9.787037,-0.421686,-0.117680
1724289493.815711,0.708302,-0.003641,0.705878,0.005590,0.167918,0.020630,-0.062081,9.610517,-0.264780,-0.000000
1724289493.825998,0.708220,-0.003006,0.705961,0.005892,0.042987,0.019356,-0.109293,9.581097,-0.039227,0.215746
1724289493.836290,0.708285,-0.002881,0.705891,0.006462,-0.049951,-0.012392,-0.106675,9.561484,0.186326,0.225553
1724289493.847680,0.708482,-0.003206,0.705687,0.006987,-0.120061,-0.059202,-0.030281,9.571290,0.343233,0.156906
1724289493.858509,0.708787,-0.003799,0.705376,0.007160,-0.088383,-0.066951,0.039043,9.512450,0.225553,-0.078453
1724289493.869313,0.708976,-0.004410,0.705184,0.007042,-0.068330,-0.058765,0.104091,9.492837,-0.058840,-0.225553
1724289493.878999,0.709002,-0.004848,0.705158,0.006679,-0.019914,-0.009739,0.105261,9.551677,-0.343233,-0.323619
1724289493.888833,0.708821,-0.004797,0.705344,0.006273,0.063774,0.045675,0.059376,9.571290,-0.441299,-0.274586
1724289493.899207,0.708485,-0.004800,0.705681,0.006282,0.026564,0.085905,0.005445,9.669357,-0.353039,-0.068647
1724289493.910558,0.708134,-0.004887,0.706031,0.006504,-0.053285,0.103062,-0.019408,9.669357,-0.362846,0.147100
1724289493.921697,0.707845,-0.004789,0.706320,0.006651,-0.005079,0.076585,-0.029007,9.816457,-0.245166,0.284393
1724289493.932853,0.707655,-0.004780,0.706510,0.006784,-0.009669,0.044803,-0.027698,9.581097,-0.235360,0.196133
1724289493.943076,0.707405,-0.004672,0.706763,0.006435,0.034243,0.064734,0.041696,9.953750,-0.353039,0.166713
1724289493.953215,0.707073,-0.004264,0.707103,0.005930,0.134111,0.094632,0.012147,10.002783,-0.402073,0.304006
1724289493.964499,0.706692,-0.003917,0.707489,0.005574,0.096377,0.094300,0.007330,10.130269,-0.441299,0.294199
1724289493.975569,0.706160,-0.003580,0.708022,0.005453,0.070023,0.146084,-0.027786,10.228336,-0.333426,0.715885
1724289493.986731,0.705836,-0.003576,0.708342,0.005791,-0.039828,0.091263,-0.041382,10.140076,-0.235360,0.882598
1724289493.997492,0.705902,-0.003654,0.708274,0.006046,-0.049655,-0.006912,-0.027838,10.287176,-0.137293,0.725692
1724289494.008325,0.706229,-0.003683,0.707948,0.006079,-0.006283,-0.087982,-0.002950,10.149883,-0.147100,0.617819
1724289494.019218,0.706683,-0.003917,0.707493,0.006104,-0.032830,-0.116431,0.031224,10.002783,-0.098067,0.343233
1724289494.028964,0.707091,-0.004011,0.707086,0.005998,0.002688,-0.113080,0.033947,9.934136,-0.225553,0.147100
1724289494.039803,0.707313,-0.003943,0.706865,0.005955,0.030788,-0.066951,-0.012479,9.894910,-0.245166,0.147100
1724289494.049927,0.707444,-0.003895,0.706733,0.006077,-0.017802,-0.038589,-0.015184,9.806650,-0.245166,0.264780
1724289494.059956,0.707595,-0.003519,0.706585,0.005946,0.060580,-0.034907,-0.044488,9.983170,-0.196133,0.382459
1724289494.069811,0.707788,-0.003161,0.706395,0.005775,0.098803,-0.057212,-0.023440,9.836070,-0.029420,0.402073
1724289494.080616,0.708054,-0.003193,0.706127,0.005865,0.012881,-0.082903,-0.005847,9.738003,-0.049033,0.362846
1724289494.091764,0.708486,-0.003755,0.705688,0.006143,-0.121510,-0.123168,0.043092,9.698777,-0.039227,0.186326
1724289494.101893,0.709158,-0.004646,0.705006,0.006362,-0.138771,-0.170239,0.080861,9.492837,-0.215746,-0.009807
1724289494.112951,0.709672,-0.005265,0.704482,0.006484,-0.097983,-0.153781,0.076201,9.492837,-0.313813,-0.127486
1724289494.123085,0.710090,-0.005931,0.704053,0.006780,-0.124198,-0.120969,0.049253,9.365351,-0.362846,-0.343233
1724289494.134518,0.710322,-0.006290,0.703813,0.007051,-0.108874,-0.079866,0.013526,9.375157,-0.460913,-0.362846
1724289494.144737,0.710404,-0.006391,0.703726,0.007456,-0.055501,-0.023876,-0.033737,9.277091,-0.186326,-0.323619
1724289494.154846,0.710370,-0.006632,0.703751,0.008078,-0.115541,0.008779,-0.055292,9.394771,-0.127486,-0.402073
1724289494.164898,0.710275,-0.006610,0.703844,0.008360,-0.047124,0.014853,-0.042638,9.306511,0.009807,-0.353039
1724289494.174910,0.710125,-0.006565,0.703995,0.008380,-0.000454,0.036634,-0.015708,9.473224,-0.000000,-0.264780
1724289494.184874,0.709856,-0.006412,0.704272,0.008027,0.050859,0.068923,0.032393,9.541870,-0.147100,-0.264780
1724289494.194892,0.709495,-0.006050,0.704645,0.007402,0.139382,0.109694,0.033824,9.581097,-0.225553,-0.205940
1724289494.204792,0.709021,-0.005721,0.705131,0.006842,0.137794,0.126920,0.034366,9.620324,-0.304006,-0.058840
1724289494.215734,0.708456,-0.005770,0.705701,0.006596,0.058783,0.148685,0.018169,9.757617,-0.431493,0.137293
1724289494.226684,0.707858,-0.006101,0.706293,0.007018,-0.089500,0.154025,-0.003613,9.777230,-0.372653,0.362846
1724289494.237713,0.707455,-0.006478,0.706687,0.007715,-0.139085,0.104353,-0.040300,9.914523,-0.294199,0.480526
1724289494.247737,0.707210,-0.006633,0.706924,0.008337,-0.103655,0.064333,-0.057194,9.973363,-0.137293,0.421686
1724289494.257977,0.707048,-0.006664,0.707079,0.008836,-0.076044,0.045448,-0.065048,10.032203,0.009807,0.353039
1724289494.267909,0.706895,-0.006509,0.707231,0.009054,-0.028798,0.041155,-0.054838,10.071430,0.019613,0.313813
1724289494.278100,0.706714,-0.006095,0.707416,0.008973,0.060458,0.052273,-0.052482,10.002783,-0.078453,0.284393
1724289494.289415,0.706495,-0.005680,0.707641,0.008783,0.096429,0.051679,-0.032358,9.983170,-0.009807,0.372653
1724289494.300941,0.706231,-0.005415,0.707907,0.008716,0.034784,0.072466,-0.027716,9.992976,-0.049033,0.353039
1724289494.310869,0.706018,-0.005110,0.708123,0.008539,0.049480,0.053163,-0.017488,10.130269,-0.039227,0.460913
1724289494.320883,0.705845,-0.004767,0.708302,0.008229,0.091979,0.037751,-0.006370,10.130269,-0.019613,0.480526
1724289494.330879,0.705743,-0.004540,0.708409,0.007875,0.094597,0.032009,0.026250,9.973363,-0.137293,0.578592
1724289494.340919,0.705741,-0.004584,0.708412,0.007757,0.024208,0.009931,0.019356,10.002783,-0.235360,0.696272
1724289494.350889,0.705737,-0.004762,0.708415,0.007764,-0.015813,-0.031678,0.021345,9.816457,-0.294199,0.657046
1724289494.360913,0.706024,-0.004963,0.708124,0.008057,-0.057055,-0.086045,-0.016354,9.747810,-0.304006,0.451106
1724289494.370909,0.706445,-0.005348,0.707696,0.008609,-0.120567,-0.121370,-0.028379,9.708583,-0.235360,0.215746
1724289494.380876,0.706858,-0.005621,0.707275,0.009114,-0.121754,-0.108978,-0.038537,9.649744,-0.049033,-0.049033
1724289494.390881,0.707170,-0.005686,0.706959,0.009345,-0.052430,-0.093969,-0.023824,9.777230,-0.029420,-0.117680
1724289494.401803,0.707304,-0.005451,0.706829,0.009222,0.027908,-0.050021,-0.016598,9.679164,-0.078453,-0.215746
1724289494.412958,0.707247,-0.004790,0.706896,0.008699,0.140132,0.005725,-0.016179,9.649744,0.019613,-0.166713
1724289494.423113,0.707045,-0.004202,0.707108,0.008250,0.150447,0.050981,-0.017907,9.630130,-0.029420,-0.078453
1724289494.434706,0.706789,-0.003747,0.707370,0.007977,0.119101,0.073862,-0.031643,9.600710,0.000000,0.117680
1724289494.445132,0.706563,-0.003380,0.707600,0.007764,0.070232,0.052377,-0.019670,9.708583,-0.019613,0.235360
1724289494.455230,0.706466,-0.003306,0.707698,0.007703,0.032062,0.027594,-0.004503,9.659550,0.000000,0.205940
1724289494.466550,0.706397,-0.003537,0.707764,0.007842,-0.043930,0.025604,0.009355,9.600710,-0.009807,0.166713
1724289494.477613,0.706344,-0.004087,0.707812,0.008044,-0.086708,0.010908,0.040631,9.738003,-0.127486,0.196133
1724289494.488696,0.706281,-0.004549,0.707870,0.008150,-0.083828,0.023579,0.050265,9.747810,-0.254973,0.009807
1724289494.499660,0.706154,-0.005057,0.707990,0.008357,-0.083479,0.037001,0.028658,9.718390,-0.353039,0.098067
1724289494.510767,0.706081,-0.005203,0.708062,0.008360,-0.040527,0.054158,-0.008238,9.787037,-0.362846,0.029420
1724289494.521704,0.705802,-0.004859,0.708343,0.008322,0.043947,0.079971,-0.042394,9.845877,-0.284393,0.127486
1724289494.532716,0.705421,-0.004246,0.708729,0.008107,0.096011,0.103201,-0.050440,9.836070,-0.245166,0.196133
1724289494.543760,0.704988,-0.003390,0.709170,0.007655,0.171950,0.114947,-0.060284,9.924330,-0.186326,0.343233
1724289494.554848,0.704554,-0.002699,0.709606,0.007396,0.128125,0.119206,-0.052203,9.953750,-0.156906,0.451106
1724289494.564719,0.704270,-0.002105,0.709894,0.007052,0.117513,0.085835,-0.031974,9.943943,-0.127486,0.637432
1724289494.575762,0.704167,-0.001588,0.710002,0.006594,0.145979,0.040579,-0.003700,9.943943,-0.049033,0.617819
1724289494.586057,0.704151,-0.001366,0.710021,0.006236,0.080774,0.005027,0.021258,9.757617,-0.127486,0.470719
1724289494.597428,0.704125,-0.001290,0.710050,0.005954,0.050545,0.002688,0.027890,9.787037,-0.127486,0.372653
1724289494.608688,0.704133,-0.001359,0.710045,0.005651,0.026389,-0.012968,0.040579,9.914523,-0.137293,0.245166
1724289494.619816,0.704091,-0.001299,0.710089,0.005229,0.044070,0.005952,0.053878,9.757617,-0.205940,0.284393
1724289494.629719,0.704062,-0.000702,0.710124,0.004555,0.156765,0.004852,0.010036,9.973363,-0.304006,0.264780
1724289494.639733,0.703940,0.000040,0.710247,0.004138,0.183521,0.030788,-0.033528,9.787037,-0.264780,0.225553
1724289494.649776,0.703679,0.000475,0.710503,0.004473,0.045256,0.061575,-0.102573,9.787037,-0.088260,0.284393
1724289494.659891,0.703467,0.000532,0.710709,0.005172,-0.068836,0.063722,-0.113813,9.747810,0.127486,0.480526
1724289494.669987,0.703387,0.000305,0.710782,0.005858,-0.128107,0.028309,-0.078749,9.904716,0.205940,0.509946
1724289494.680159,0.703377,0.000053,0.710788,0.006433,-0.123203,-0.011694,-0.020892,9.806650,0.313813,0.431493
1724289494.691458,0.703542,-0.000264,0.710621,0.006770,-0.092380,-0.051505,0.038502,9.708583,0.117680,0.343233
1724289494.702536,0.703783,-0.000771,0.710380,0.006942,-0.088959,-0.059516,0.062029,9.865490,-0.049033,0.156906
1724289494.712729,0.703933,-0.001291,0.710233,0.006854,-0.059743,-0.030945,0.077091,9.747810,-0.127486,0.117680
1724289494.722739,0.703907,-0.001363,0.710259,0.006696,0.022201,-0.003560,0.043808,9.738003,-0.205940,0.098067
1724289494.732841,0.703754,-0.001507,0.710410,0.006798,-0.034313,0.039898,0.005603,9.865490,-0.166713,0.215746
1724289494.742993,0.703510,-0.001669,0.710647,0.007167,-0.048293,0.070441,-0.015813,9.738003,-0.009807,0.431493
1724289494.753063,0.703307,-0.002412,0.710835,0.008151,-0.196262,0.048014,-0.033057,9.885103,0.205940,0.558979
1724289494.764365,0.703251,-0.003795,0.710868,0.009497,-0.382803,0.016511,0.001745,9.973363,0.058840,0.686466
1724289494.775666,0.703603,-0.005134,0.710501,0.010230,-0.267227,-0.080704,0.059970,9.845877,-0.107873,0.441299
1724289494.786008,0.704058,-0.005766,0.710047,0.010141,-0.080512,-0.127723,0.093654,9.904716,-0.313813,0.107873
1724289494.796198,0.704341,-0.005990,0.709769,0.009770,-0.001361,-0.090583,0.082711,9.767423,-0.519752,-0.039227
1724289494.807586,0.704561,-0.005801,0.709562,0.009045,0.140464,0.007295,0.014364,9.728197,-0.549172,-0.117680
1724289494.817986,0.704325,-0.005348,0.709804,0.008783,0.086394,0.071070,-0.048049,9.845877,-0.392266,0.166713
1724289494.829352,0.703964,-0.004793,0.710166,0.008770,0.091176,0.092921,-0.094091,9.875297,-0.235360,0.519752
1724289494.839683,0.703717,-0.004167,0.710411,0.009001,0.048258,0.030386,-0.078837,9.816457,0.049033,0.608012
1724289494.849945,0.703768,-0.003938,0.710358,0.009292,-0.006109,-0.022724,-0.032585,9.816457,0.088260,0.480526
1724289494.860229,0.704029,-0.004018,0.710100,0.009224,-0.012933,-0.071803,0.020071,9.688970,0.039227,0.225553
1724289494.871636,0.704269,-0.004035,0.709865,0.008997,0.009233,-0.057840,0.023579,9.718390,-0.078453,-0.000000
1724289494.881967,0.704324,-0.003857,0.709816,0.008582,0.071873,-0.014190,0.033353,9.600710,-0.098067,-0.068647
1724289494.891935,0.704289,-0.003541,0.709858,0.008097,0.111527,0.031643,0.019705,9.728197,-0.304006,0.019613
1724289494.902021,0.703978,-0.003165,0.710173,0.007720,0.108769,0.092991,-0.002496,9.875297,-0.274586,0.225553
1724289494.911998,0.703656,-0.002612,0.710499,0.007187,0.127531,0.097058,0.007959,9.875297,-0.176520,0.431493
1724289494.922012,0.703355,-0.002051,0.710805,0.006662,0.189909,0.071995,0.004660,9.845877,-0.137293,0.647239
1724289494.931890,0.703284,-0.002254,0.710874,0.006706,-0.010507,0.031433,0.010577,9.943943,-0.196133,0.686466
1724289494.942086,0.703367,-0.002682,0.710788,0.006907,-0.095853,-0.020752,0.034278,9.836070,-0.196133,0.549172
1724289494.951908,0.703589,-0.003091,0.710564,0.007152,-0.091106,-0.065223,0.021345,9.855683,-0.137293,0.402073
1724289494.963452,0.703796,-0.003581,0.710353,0.007477,-0.115663,-0.064804,0.028047,9.924330,-0.245166,0.215746
1724289494.974917,0.703929,-0.003906,0.710218,0.007768,-0.068626,-0.022951,0.000017,9.806650,-0.186326,0.156906
1724289494.985171,0.703955,-0.004020,0.710188,0.008062,-0.062012,-0.010071,-0.019234,9.796843,-0.107873,0.215746
1724289494.996554,0.704021,-0.004029,0.710120,0.008250,-0.020769,-0.009372,-0.020193,9.855683,0.019613,0.421686
1724289495.007739,0.704182,-0.003975,0.709958,0.008428,-0.012863,-0.043022,-0.013212,9.865490,0.098067,0.323619
1724289495.017976,0.704368,-0.003906,0.709774,0.008484,0.002147,-0.065397,0.014835,9.708583,0.147100,0.304006
1724289495.027719,0.704541,-0.004109,0.709602,0.008368,0.006894,-0.051871,0.044174,9.767423,0.117680,0.166713
1724289495.037662,0.704665,-0.004553,0.709477,0.008356,-0.061540,-0.034784,0.064333,9.728197,0.137293,0.245166
1724289495.047729,0.704754,-0.005004,0.709388,0.008065,-0.050580,-0.030840,0.096779,9.649744,0.039227,0.147100
1724289495.057995,0.704865,-0.005255,0.709283,0.007456,0.048398,-0.032323,0.127479,9.571290,-0.117680,0.284393
1724289495.069361,0.704944,-0.005474,0.709208,0.006929,0.049009,-0.019827,0.114895,9.688970,-0.245166,0.166713
1724289495.080377,0.704984,-0.005689,0.709170,0.006591,0.017698,-0.005917,0.071995,9.728197,-0.225553,0.137293
1724289495.091608,0.704985,-0.006022,0.709168,0.006344,-0.003211,0.005480,0.074072,9.787037,-0.127486,0.127486
1724289495.101911,-0.704932,0.006477,-0.709221,-0.005963,-0.016965,0.026023,0.108420,9.953750,-0.196133,0.274586
1724289495.112158,-0.704866,0.006744,-0.709289,-0.005301,0.046338,0.030823,0.125821,9.934136,-0.264780,0.304006
1724289495.123586,-0.704807,0.006882,-0.709352,-0.004521,0.092153,0.015184,0.132470,9.963556,-0.372653,0.460913
1724289495.135045,-0.704792,0.007132,-0.709368,-0.003877,0.059271,-0.000157,0.109153,9.992976,-0.382459,0.529559
1724289495.146383,-0.704797,0.007509,-0.709360,-0.003672,-0.004695,-0.015272,0.073635,9.777230,-0.372653,0.529559
1724289495.157637,-0.704944,0.008163,-0.709205,-0.004030,-0.131703,-0.041766,0.035832,9.787037,-0.235360,0.637432
1724289495.168854,-0.705306,0.009127,-0.708829,-0.004596,-0.188356,-0.102905,0.057369,9.875297,-0.176520,0.451106
1724289495.179863,-0.705825,0.010064,-0.708298,-0.004967,-0.166644,-0.118072,0.080058,9.816457,-0.205940,0.176520
1724289495.190032,-0.706244,0.011159,-0.707864,-0.004860,-0.148807,-0.112731,0.150081,9.845877,-0.323619,-0.049033
1724289495.199926,-0.706502,0.011610,-0.707604,-0.004051,0.003578,-0.077702,0.170466,9.816457,-0.558979,-0.117680
1724289495.210017,-0.706613,0.011250,-0.707506,-0.002707,0.212581,-0.021572,0.137759,9.826263,-0.784532,-0.078453
1724289495.220181,-0.706495,0.010335,-0.707640,-0.001660,0.309028,0.031084,0.049637,9.669357,-0.755112,0.098067
1724289495.231448,-0.706290,0.009843,-0.707852,-0.001585,0.101770,0.055955,-0.064071,9.767423,-0.549172,0.402073
1724289495.242527,-0.706268,0.009659,-0.707876,-0.002052,-0.041242,0.005882,-0.081158,9.679164,-0.186326,0.509946
1724289495.252841,-0.706577,0.009444,-0.707569,-0.002268,-0.009041,-0.076672,-0.058416,9.698777,0.009807,0.372653
1724289495.263176,-0.706958,0.009680,-0.707185,-0.002414,-0.025831,-0.109799,-0.006091,9.502644,0.039227,0.117680
1724289495.274464,-0.707273,0.010515,-0.706857,-0.002653,-0.152524,-0.102346,0.078226,9.561484,-0.117680,-0.088260
1724289495.284769,-0.707451,0.011731,-0.706659,-0.002806,-0.167237,-0.056758,0.117949,9.649744,-0.274586,-0.176520
1724289495.295100,-0.707463,0.012570,-0.706634,-0.002670,-0.120812,-0.015900,0.137357,9.669357,-0.451106,-0.039227
1724289495.306521,-0.707465,0.013096,-0.706624,-0.002132,-0.013387,0.005794,0.128421,9.688970,-0.696272,0.039227
1724289495.316832,-0.707405,0.013058,-0.706687,-0.001467,0.079395,0.026704,0.072309,9.600710,-0.853179,0.019613
1724289495.327145,-0.707349,0.012654,-0.706751,-0.000871,0.134582,0.020263,-0.007156,9.698777,-0.755112,0.107873
1724289495.338498,-0.707223,0.011808,-0.706891,-0.000730,0.154863,0.029077,-0.101316,9.718390,-0.578592,0.068647
1724289495.350001,-0.707036,0.010749,-0.707095,-0.000901,0.093934,0.060301,-0.139365,9.767423,-0.225553,0.137293
1724289495.360144,-0.706869,0.009794,-0.707276,-0.000646,0.141267,0.047717,-0.089186,9.738003,-0.019613,0.166713
1724289495.371572,-0.706716,0.009007,-0.707440,-0.000039,0.195966,0.042167,-0.038886,9.757617,0.068647,0.166713
1724289495.381714,-0.706506,0.008443,-0.707656,0.000804,0.172072,0.049532,0.033493,9.590904,-0.000000,0.294199
1724289495.391882,-0.706307,0.008577,-0.707853,0.000962,0.057107,0.061034,0.039951,9.551677,-0.107873,0.362846
1724289495.401997,-0.706217,0.009590,-0.707930,0.000334,-0.200067,0.027297,0.053407,9.590904,-0.117680,0.431493
1724289495.412158,-0.706269,0.010948,-0.707859,-0.000504,-0.312693,-0.006772,0.074962,9.747810,-0.225553,0.304006
1724289495.423614,-0.706467,0.012131,-0.707642,-0.001012,-0.251537,-0.046007,0.097407,9.767423,-0.313813,0.098067
1724289495.433972,-0.706649,0.013025,-0.707444,-0.001031,-0.118421,-0.042534,0.107617,9.757617,-0.529559,-0.196133
1724289495.445340,-0.706578,0.013212,-0.707511,-0.000622,0.001902,0.007278,0.087458,9.728197,-0.608012,-0.372653
1724289495.456781,-0.706456,0.013019,-0.707637,0.000456,0.150290,0.089012,0.051871,9.688970,-0.774725,-0.304006
1724289495.467079,-0.705931,0.012280,-0.708173,0.001321,0.209631,0.150273,-0.008151,9.747810,-0.706079,0.039227
1724289495.478418,-0.705339,0.011433,-0.708775,0.001993,0.218288,0.199666,-0.062745,9.836070,-0.578592,0.215746
1724289495.489754,-0.704521,0.010164,-0.709606,0.002476,0.216805,0.202022,-0.083497,9.983170,-0.539366,0.500139
1724289495.500976,-0.703938,0.009303,-0.710196,0.002577,0.139923,0.148458,-0.100531,9.983170,-0.451106,0.725692
1724289495.511183,-0.703600,0.008981,-0.710535,0.002329,0.020612,0.095993,-0.077702,10.022396,-0.343233,0.813952
1724289495.522475,-0.703493,0.008961,-0.710643,0.002038,-0.029461,0.034226,-0.045361,9.943943,-0.284393,0.735499
1724289495.532897,-0.703478,0.009556,-0.710652,0.001398,-0.143658,0.001728,-0.002426,10.002783,-0.304006,0.558979
1724289495.543226,-0.703446,0.010439,-0.710672,0.000554,-0.230436,0.009250,0.001606,9.934136,-0.323619,0.529559
1724289495.554499,-0.703442,0.011589,-0.710658,-0.000456,-0.317493,0.006510,0.015027,10.051816,-0.411879,0.539366
1724289495.565057,-0.703538,0.012468,-0.710547,-0.001131,-0.208724,-0.018850,0.017174,10.091043,-0.431493,0.431493
1724289495.576422,-0.703646,0.012465,-0.710440,-0.001085,-0.014573,-0.040753,0.008552,10.061623,-0.558979,0.294199
1724289495.587853,-0.703693,0.011722,-0.710407,-0.000581,0.131127,-0.017733,-0.018745,10.022396,-0.578592,0.137293
1724289495.599406,-0.703563,0.010266,-0.710559,0.000184,0.276495,0.023003,-0.078767,9.943943,-0.421686,0.166713
1724289495.610735,-0.703256,0.008245,-0.710888,0.001026,0.356833,0.071750,-0.128177,9.747810,-0.264780,0.323619
1724289495.620878,-0.702923,0.007000,-0.711231,0.001237,0.211447,0.093899,-0.135490,9.845877,0.049033,0.539366
1724289495.631207,-0.702778,0.006530,-0.711379,0.001125,0.075974,0.047892,-0.085416,9.738003,0.245166,0.676659
1724289495.642506,-0.702429,0.006212,-0.711727,0.000041,-0.100112,-0.029653,-0.010559,9.816457,0.304006,0.657046
1724289495.652771,-0.702790,0.007500,-0.711358,-0.000707,-0.238482,-0.089605,0.077667,9.718390,0.117680,0.480526
1724289495.663095,-0.703186,0.008906,-0.710949,-0.001312,-0.287473,-0.108577,0.099554,9.728197,-0.098067,0.215746
1724289495.674423,-0.703517,0.010018,-0.710606,-0.001644,-0.220889,-0.095574,0.111823,9.620324,-0.353039,0.000000
1724289495.685725,-0.703680,0.010558,-0.710437,-0.001634,-0.043232,-0.044820,0.077144,9.659550,-0.421686,-0.098067
1724289495.695969,-0.703764,0.010896,-0.710348,-0.001495,-0.064298,-0.001763,0.042987,9.943943,-0.529559,-0.058840
1724289495.706168,-0.703687,0.010152,-0.710437,-0.000597,0.179228,0.021590,0.024033,9.904716,-0.608012,-0.009807
1724289495.717343,-0.703597,0.008652,-0.710546,0.000729,0.401146,0.057212,-0.052395,9.777230,-0.539366,0.049033
1724289495.728810,-0.703156,0.006658,-0.711002,0.001920,0.405946,0.105278,-0.095243,9.777230,-0.382459,0.294199
1724289495.739103,-0.702659,0.005627,-0.711501,0.002221,0.203645,0.130236,-0.098471,9.904716,-0.127486,0.637432
1724289495.750431,-0.702154,0.005201,-0.712003,0.002029,0.041905,0.070476,-0.052465,9.816457,-0.147100,0.715885
1724289495.761874,-0.702269,0.005604,-0.711887,0.001667,-0.082362,-0.033685,-0.003473,9.747810,-0.117680,0.657046
1724289495.772080,-0.702552,0.006530,-0.711601,0.001002,-0.186401,-0.086743,0.026145,9.787037,-0.294199,0.411879
1724289495.782048,-0.702874,0.007730,-0.711273,0.000165,-0.282621,-0.095260,0.053041,9.590904,-0.343233,0.245166
1724289495.793066,-0.703127,0.008751,-0.711010,-0.000529,-0.262253,-0.066619,0.055990,9.708583,-0.578592,0.147100
1724289495.803850,-0.703290,0.009536,-0.710838,-0.001287,-0.189839,-0.040911,0.004800,9.738003,-0.774725,0.068647
1724289495.814591,-0.703395,0.010244,-0.710722,-0.002195,-0.216438,0.008203,-0.044070,9.639937,-0.676659,0.009807
1724289495.825356,-0.703373,0.010513,-0.710737,-0.002938,-0.154741,0.018570,-0.071070,9.806650,-0.490333,0.029420
1724289495.836207,-0.703232,0.010273,-0.710880,-0.003129,-0.003054,0.055693,-0.056933,9.826263,-0.421686,0.147100
1724289495.847104,-0.702967,0.009657,-0.711152,-0.002746,0.124163,0.090687,-0.037298,9.777230,-0.431493,0.235360
1724289495.857816,-0.702546,0.009222,-0.711575,-0.002317,0.115262,0.096639,-0.033545,9.796843,-0.500139,0.382459
1724289495.867911,-0.702107,0.009248,-0.712008,-0.002389,0.003630,0.084073,-0.022637,9.826263,-0.460913,0.627626
1724289495.877993,-0.701767,0.009430,-0.712339,-0.002713,-0.078627,0.047019,-0.046181,9.787037,-0.470719,0.598206
1724289495.888802,-0.701504,0.009454,-0.712597,-0.002949,-0.036006,0.004049,-0.070127,9.757617,-0.411879,0.539366
1724289495.899503,-0.701575,0.009363,-0.712525,-0.003644,-0.057317,-0.027908,-0.089361,9.747810,-0.333426,0.362846
1724289495.910202,-0.701679,0.009520,-0.712416,-0.004425,-0.136328,-0.030980,-0.070808,9.894910,-0.186326,0.254973
1724289495.921033,-0.701781,0.009441,-0.712313,-0.004973,-0.059027,-0.014486,-0.058137,9.796843,-0.107873,0.205940
1724289495.931773,-0.701719,0.009231,-0.712375,-0.005171,-0.000384,0.016511,-0.044611,9.894910,-0.098067,0.274586
1724289495.942529,-0.701552,0.008843,-0.712546,-0.004991,0.064490,0.043057,-0.017296,9.924330,-0.176520,0.274586
1724289495.953254,-0.701356,0.008307,-0.712747,-0.004749,0.110671,0.056304,-0.042691,9.934136,-0.254973,0.392266
1724289495.964021,-0.701180,0.007626,-0.712929,-0.004604,0.111893,0.043790,-0.069377,9.924330,-0.205940,0.558979
1724289495.974797,-0.701123,0.007241,-0.712986,-0.004951,0.022934,0.021852,-0.092852,9.924330,-0.147100,0.647239
1724289495.985543,-0.701175,0.007015,-0.712933,-0.005560,-0.052447,-0.027227,-0.096063,9.747810,0.117680,0.598206
1724289495.996283,-0.701414,0.006939,-0.712695,-0.006031,-0.048991,-0.060964,-0.073304,9.806650,0.088260,0.451106
1724289496.006038,-0.701679,0.007238,-0.712425,-0.006658,-0.116379,-0.071628,-0.030526,9.688970,0.186326,0.313813
1724289496.015734,-0.701883,0.007687,-0.712216,-0.007035,-0.123796,-0.066811,0.001623,9.679164,0.137293,0.196133
1724289496.026484,-0.702036,0.008206,-0.712058,-0.007220,-0.105505,-0.044576,0.029095,9.688970,0.107873,0.176520
1724289496.037231,-0.702138,0.008692,-0.711953,-0.007079,-0.057997,-0.029339,0.087511,9.738003,-0.058840,0.127486
1724289496.047981,-0.702177,0.008990,-0.711915,-0.006522,0.037437,-0.000663,0.107093,9.767423,-0.313813,-0.000000
1724289496.058749,-0.702095,0.009101,-0.712000,-0.005918,0.074683,0.026093,0.079831,9.708583,-0.529559,0.176520
1724289496.069513,-0.701901,0.009291,-0.712193,-0.005419,0.028082,0.062692,0.028955,9.875297,-0.637432,0.333426
1724289496.080273,-0.701686,0.008808,-0.712414,-0.005014,0.115942,0.069028,-0.003840,9.826263,-0.539366,0.343233
1724289496.091176,-0.701516,0.008113,-0.712593,-0.004585,0.149610,0.044785,-0.028187,9.796843,-0.451106,0.500139
1724289496.102131,-0.701471,0.007881,-0.712641,-0.004485,0.043563,0.014347,-0.012462,9.894910,-0.441299,0.490333
1724289496.112869,-0.701484,0.007914,-0.712627,-0.004513,0.004660,-0.011397,-0.014224,9.816457,-0.411879,0.392266
1724289496.123631,-0.701488,0.008465,-0.712613,-0.005135,-0.125158,-0.005899,-0.013648,9.747810,-0.313813,0.343233
1724289496.134456,-0.701513,0.009770,-0.712561,-0.006397,-0.323793,-0.002129,0.005201,9.639937,-0.304006,0.411879
1724289496.145543,-0.701605,0.010983,-0.712441,-0.007552,-0.337006,-0.022393,0.005707,9.639937,-0.333426,0.441299
1724289496.156644,-0.701770,0.012259,-0.712244,-0.008831,-0.307387,-0.050056,0.000785,9.767423,-0.323619,0.235360
1724289496.167686,-0.701869,0.013104,-0.712118,-0.009824,-0.249792,-0.020228,-0.021886,9.728197,-0.343233,0.098067
1724289496.177845,-0.701973,0.013447,-0.712002,-0.010247,-0.120777,-0.006074,-0.017575,9.777230,-0.402073,0.147100
1724289496.188788,-0.701954,0.013139,-0.712029,-0.010086,0.051243,0.010699,-0.018727,9.747810,-0.441299,0.117680
1724289496.199836,-0.701759,0.012491,-0.712237,-0.009833,0.119922,0.052534,-0.050702,9.875297,-0.294199,0.176520
1724289496.210865,-0.701456,0.011574,-0.712558,-0.009380,0.157900,0.083915,-0.062186,9.865490,-0.333426,0.343233
1724289496.220879,-0.701121,0.010115,-0.712918,-0.008680,0.298329,0.081350,-0.077597,9.747810,-0.205940,0.441299
1724289496.230795,-0.700688,0.009376,-0.713348,-0.009110,0.113778,0.094510,-0.138632,9.836070,-0.039227,0.706079
1724289496.240855,0.700387,-0.009387,0.713629,0.010197,-0.158266,0.050876,-0.116309,9.836070,0.117680,0.706079
1724289496.250839,0.700505,-0.009480,0.713502,0.010845,-0.119520,-0.022585,-0.066584,9.767423,0.205940,0.588399
1724289496.260874,0.700740,-0.009851,0.713256,0.011510,-0.099920,-0.073461,-0.022096,9.747810,0.254973,0.392266
1724289496.270841,0.700888,-0.010853,0.713079,0.012519,-0.279794,-0.046757,0.037176,9.806650,0.127486,0.294199
1724289496.280885,0.700953,-0.011869,0.712987,0.013194,-0.267332,-0.015359,0.061191,9.796843,-0.019613,0.235360
1724289496.290745,0.701034,-0.012528,0.712893,0.013313,-0.134076,-0.024801,0.081978,9.836070,-0.186326,0.254973
1724289496.300929,0.701097,-0.012819,0.712829,0.013145,-0.036425,-0.022323,0.071297,9.904716,-0.343233,0.274586
1724289496.310898,0.701131,-0.012676,0.712806,0.012696,0.058085,-0.003508,0.049340,9.816457,-0.392266,0.176520
1724289496.320996,0.701133,-0.011987,0.712831,0.011855,0.207677,0.012078,0.001990,9.738003,-0.490333,0.156906
1724289496.331032,0.700902,-0.011125,0.713080,0.011396,0.222041,0.059044,-0.055379,9.679164,-0.470719,0.362846
1724289496.341148,0.700352,-0.010784,0.713619,0.011774,0.017645,0.101089,-0.092817,9.698777,-0.166713,0.588399
1724289496.351195,0.700128,-0.011151,0.713818,0.012653,-0.186541,0.066357,-0.079412,9.904716,-0.029420,0.813952
1724289496.361119,0.700099,-0.011520,0.713828,0.013321,-0.153275,-0.021066,-0.022061,9.904716,0.039227,0.666852
1724289496.371139,0.700435,-0.012273,0.713477,0.013801,-0.156067,-0.106413,0.032760,9.767423,-0.009807,0.500139
1724289496.382251,0.700851,-0.013567,0.713030,0.014544,-0.302012,-0.112731,0.094492,9.806650,-0.215746,0.284393
1724289496.392237,0.701182,-0.014848,0.712667,0.015175,-0.236475,-0.098768,0.087511,9.502644,-0.254973,0.186326
1724289496.403417,0.701374,-0.016113,0.712431,0.016033,-0.299464,-0.059149,0.053913,9.659550,-0.313813,0.156906
1724289496.414881,-0.701627,0.017574,-0.712125,-0.016990,-0.308365,-0.044506,0.040265,9.787037,-0.304006,0.205940
1724289496.424990,-0.701870,0.018172,-0.711861,-0.017391,-0.146992,-0.070651,0.019164,9.767423,-0.411879,0.215746
1724289496.437463,-0.702126,0.018058,-0.711618,-0.017098,-0.006336,-0.046147,0.010664,9.836070,-0.353039,0.078453
1724289496.448881,-0.702359,0.016871,-0.711446,-0.015842,0.277403,0.004084,-0.028222,9.816457,-0.402073,0.029420
1724289496.459886,-0.702285,0.015288,-0.711584,-0.014526,0.391634,0.088069,-0.044157,9.777230,-0.264780,0.039227
1724289496.470710,0.701560,-0.014063,0.712334,0.014010,0.241938,0.158755,-0.080407,9.787037,-0.205940,0.441299
1724289496.480670,0.700937,-0.013570,0.712952,0.014220,0.075590,0.149103,-0.084614,9.738003,-0.049033,0.686466
1724289496.490660,0.700705,-0.013655,0.713171,0.014591,-0.051644,0.078592,-0.044052,9.855683,0.058840,0.853179
1724289496.500835,0.700690,-0.014055,0.713170,0.014981,-0.087842,0.000995,0.007819,9.806650,0.098067,0.823759
1724289496.511135,0.700757,-0.015100,0.713064,0.015836,-0.237016,-0.044436,0.050615,9.767423,-0.019613,0.617819
1724289496.522471,0.701059,-0.016428,0.712721,0.016569,-0.322903,-0.099327,0.077667,9.885103,-0.284393,0.402073
1724289496.532755,-0.701491,0.016892,-0.712285,-0.016598,-0.078400,-0.097843,0.036687,9.826263,-0.372653,0.127486
1724289496.542765,-0.701596,0.016477,-0.712203,-0.016101,0.103917,-0.038013,0.009425,9.885103,-0.421686,-0.029420
1724289496.552864,-0.701570,0.015645,-0.712264,-0.015291,0.227957,0.029897,-0.019146,9.777230,-0.451106,0.058840
1724289496.562929,0.701166,-0.014701,0.712691,0.014903,0.229336,0.112050,-0.070599,9.688970,-0.196133,0.333426
1724289496.572651,0.700553,-0.014369,0.713287,0.015518,0.013160,0.141983,-0.100967,9.738003,-0.009807,0.735499
1724289496.582455,0.700439,-0.014835,0.713371,0.016348,-0.182684,0.049934,-0.071454,9.875297,0.098067,0.843372
1724289496.593403,0.700639,-0.015279,0.713154,0.016842,-0.163345,-0.065415,0.000471,9.747810,0.117680,0.676659
1724289496.604289,0.701132,-0.015734,0.712650,0.017214,-0.113028,-0.139766,0.053023,9.777230,-0.098067,0.245166
1724289496.615229,0.701754,-0.016068,0.712037,0.016905,-0.018361,-0.097128,0.082362,9.826263,-0.245166,-0.107873
1724289496.625395,0.701698,-0.015826,0.712110,0.016393,0.130830,0.010455,0.040020,9.698777,-0.313813,-0.000000
1724289496.635364,0.701350,-0.016092,0.712439,0.016720,-0.071768,0.090216,-0.008290,9.787037,-0.284393,0.294199
1724289496.646166,0.700931,-0.016384,0.712831,0.017291,-0.140900,0.090949,-0.023736,9.826263,-0.117680,0.608012
1724289496.655896,0.700854,-0.016346,0.712906,0.017366,-0.001658,0.018762,-0.023021,9.875297,-0.039227,0.637432
1724289496.665760,0.700943,-0.016469,0.712815,0.017404,-0.004014,-0.024260,0.012182,9.826263,-0.068647,0.441299
1724289496.675588,0.701139,-0.016828,0.712614,0.017402,-0.063862,-0.057561,0.052674,9.796843,-0.205940,0.333426
1724289496.686538,0.701333,-0.016943,0.712426,0.017164,0.004590,-0.060144,0.056968,9.688970,-0.313813,0.176520
1724289496.697459,0.701571,-0.016816,0.712207,0.016612,0.081856,-0.038397,0.028013,9.777230,-0.431493,0.039227
1724289496.708349,0.701541,-0.016184,0.712265,0.016023,0.175301,0.012235,-0.017698,9.747810,-0.519752,0.039227
1724289496.719131,0.701316,-0.015241,0.712519,0.015510,0.198112,0.067178,-0.041190,9.728197,-0.333426,0.225553
1724289496.728839,0.700975,-0.014719,0.712863,0.015613,0.043581,0.097808,-0.081577,9.826263,-0.147100,0.460913
1724289496.739604,0.700697,-0.014423,0.713136,0.015896,0.014451,0.067963,-0.060441,9.698777,0.000000,0.578592
1724289496.750393,0.700650,-0.014679,0.713165,0.016430,-0.103899,0.022480,-0.049829,9.836070,0.029420,0.608012
1724289496.761158,0.700727,-0.014965,0.713074,0.016847,-0.122138,-0.031433,0.013771,9.836070,-0.029420,0.529559
1724289496.770871,0.700934,-0.015173,0.712869,0.016701,-0.002409,-0.059725,0.042830,9.777230,-0.127486,0.382459
1724289496.780556,0.701047,-0.015378,0.712755,0.016619,-0.008447,-0.040736,0.052185,9.806650,-0.205940,0.304006
1724289496.791297,0.701098,-0.015569,0.712701,0.016626,-0.037577,-0.007069,0.028170,9.826263,-0.333426,0.245166
1724289496.802051,0.701102,-0.015747,0.712687,0.016855,-0.044401,0.000279,-0.010367,9.855683,-0.215746,0.372653
1724289496.811734,0.701113,-0.015941,0.712666,0.017118,-0.061628,-0.011694,-0.011921,9.787037,-0.186326,0.343233
1724289496.822478,0.701158,-0.015903,0.712620,0.017242,-0.013998,-0.006528,-0.012793,9.836070,-0.078453,0.294199
1724289496.833223,0.701174,-0.015999,0.712600,0.017318,-0.022619,-0.003299,0.004573,9.679164,-0.117680,0.225553
1724289496.842905,0.701169,-0.016119,0.712601,0.017384,-0.027751,0.004625,0.016179,9.787037,-0.137293,0.274586
1724289496.852610,0.701136,-0.016158,0.712636,0.017246,0.012584,0.018692,0.029671,9.777230,-0.117680,0.274586
1724289496.863361,0.701047,-0.016108,0.712728,0.017111,0.034750,0.021904,0.019635,9.806650,-0.117680,0.382459
1724289496.874119,0.700955,-0.016138,0.712820,0.017007,0.004119,0.029915,0.018692,9.806650,-0.284393,0.353039
1724289496.883815,0.700919,-0.016136,0.712861,0.016762,0.035186,0.007365,0.029618,9.806650,-0.323619,0.480526
1724289496.894560,0.700962,-0.016105,0.712825,0.016571,0.032393,-0.013788,0.016197,9.816457,-0.264780,0.313813
1724289496.905288,0.701006,-0.016015,0.712788,0.016340,0.038746,-0.004049,0.008203,9.767423,-0.284393,0.215746
1724289496.916036,0.701035,-0.015605,0.712777,0.015997,0.098803,0.008221,-0.012881,9.767423,-0.294199,0.294199
1724289496.925727,0.700953,-0.015164,0.712871,0.015784,0.093881,0.032917,-0.023056,9.679164,-0.147100,0.411879
1724289496.936487,0.700832,-0.014955,0.712995,0.015809,0.026843,0.035605,-0.029339,9.728197,-0.196133,0.372653
1724289496.947245,0.700724,-0.014847,0.713103,0.015793,0.017628,0.035186,-0.010838,9.904716,-0.127486,0.519752
1724289496.956944,0.700629,-0.014837,0.713197,0.015742,0.008482,0.020263,0.017994,9.757617,-0.117680,0.441299
1724289496.966645,0.700586,-0.015110,0.713236,0.015653,-0.021293,0.003805,0.055414,9.885103,-0.264780,0.382459
1724289496.977398,0.700609,-0.015435,0.713208,0.015575,-0.044244,-0.002007,0.056112,9.894910,-0.353039,0.382459
1724289496.988157,0.700646,-0.015504,0.713172,0.015493,0.002321,-0.020001,0.015080,9.865490,-0.402073,0.304006
1724289496.997844,0.700651,-0.015515,0.713165,0.015581,-0.010734,-0.002897,-0.033545,9.777230,-0.372653,0.392266
1724289497.007548,0.700652,-0.015492,0.713157,0.015963,-0.048764,0.014137,-0.064420,9.826263,-0.245166,0.382459
1724289497.018312,0.700635,-0.015427,0.713167,0.016311,-0.043720,-0.008954,-0.064333,9.816457,-0.117680,0.441299
1724289497.029075,0.700643,-0.015284,0.713156,0.016540,-0.006964,-0.014643,-0.041242,9.728197,-0.107873,0.382459
1724289497.038784,0.700700,-0.015244,0.713096,0.016766,-0.024784,-0.019146,-0.013334,9.806650,-0.098067,0.353039
1724289497.049534,0.700656,-0.015629,0.713120,0.017207,-0.078976,-0.002758,0.001012,9.738003,0.029420,0.421686
1724289497.060308,0.700640,-0.016666,0.713093,0.018020,-0.270858,0.003927,0.027576,9.875297,-0.058840,0.519752
1724289497.071059,0.700780,-0.017664,0.712917,0.018540,-0.203017,-0.037926,0.061872,9.845877,-0.274586,0.411879
1724289497.080751,0.701026,-0.018035,0.712669,0.018428,-0.039759,-0.068207,0.057962,10.002783,-0.343233,0.284393
1724289497.091511,0.701199,-0.017920,0.712516,0.017902,0.073356,-0.056968,0.055117,10.002783,-0.441299,0.166713
1724289497.102295,0.701283,-0.017478,0.712461,0.017209,0.160675,-0.011153,0.015568,9.757617,-0.539366,0.127486
1724289497.111940,0.701143,-0.016897,0.712620,0.016914,0.123726,0.049515,-0.045379,9.816457,-0.411879,0.274586
1724289497.121639,0.700932,-0.016653,0.712824,0.017281,0.003613,0.063024,-0.094230,9.747810,-0.235360,0.549172
1724289497.132387,0.700811,-0.016735,0.712927,0.017865,-0.093201,0.025080,-0.072361,9.816457,-0.019613,0.627626
1724289497.143161,0.700990,-0.016874,0.712740,0.018183,-0.058678,-0.053285,-0.020455,9.836070,0.009807,0.549172
1724289497.152865,0.701367,-0.017118,0.712360,0.018310,-0.044139,-0.106221,0.014870,9.767423,-0.117680,0.411879
1724289497.163125,0.701738,-0.017324,0.711992,0.018215,-0.026215,-0.115227,0.041207,9.649744,-0.284393,0.117680
1724289497.174287,0.701953,-0.017418,0.711781,0.018046,0.005585,-0.068173,0.041504,9.669357,-0.421686,0.000000
1724289497.184347,0.701958,-0.017455,0.711775,0.018058,-0.006545,0.001710,-0.001204,9.659550,-0.333426,0.000000
1724289497.194325,0.701827,-0.017398,0.711902,0.018214,-0.015499,0.032795,-0.025342,9.620324,-0.294199,0.235360
1724289497.204342,0.701689,-0.017336,0.712034,0.018437,-0.028082,0.034488,-0.040247,9.747810,-0.196133,0.323619
1724289497.214502,0.701620,-0.017340,0.712097,0.018593,-0.022619,0.019042,-0.017890,9.787037,-0.176520,0.362846
1724289497.224563,0.701589,-0.017552,0.712118,0.018788,-0.044122,0.003124,0.001152,9.894910,-0.274586,0.441299
1724289497.234440,0.701579,-0.017974,0.712109,0.019094,-0.102468,0.006545,0.010280,9.845877,-0.235360,0.392266
1724289497.244792,0.701622,-0.018368,0.712048,0.019416,-0.108647,-0.010524,0.009844,9.865490,-0.323619,0.392266
1724289497.255102,0.701715,-0.018708,0.711941,0.019631,-0.081594,-0.021101,0.009442,9.934136,-0.431493,0.333426
1724289497.266394,0.701805,-0.019049,0.711835,0.019956,-0.087842,-0.028152,-0.002618,9.767423,-0.460913,0.215746
1724289497.277282,0.701801,-0.019419,0.711813,0.020499,-0.128718,-0.002548,-0.023754,10.002783,-0.490333,0.245166
